{
    "resourceType": "Bundle",
    "type": "transaction",
    "entry": [
        {
            "fullUrl": "urn:uuid:patient-khalid-alsaudi-04",
            "resource": {
                "resourceType": "Patient",
                "active": true,
                "identifier": [
                    {
                        "use": "usual",
                        "type": {
                            "coding": [
                                {
                                    "system": "http://terminology.hl7.org/CodeSystem/v2-0203",
                                    "code": "MR"
                                }
                            ]
                        },
                        "system": "http://moh.gov.sa/mrn",
                        "value": "SA-04567890"
                    },
                    {
                        "use": "official",
                        "type": {
                            "coding": [
                                {
                                    "system": "http://terminology.hl7.org/CodeSystem/v2-0203",
                                    "code": "NI"
                                }
                            ]
                        },
                        "system": "http://saudi.gov.sa/national-id",
                        "value": "2095061234"
                    }
                ],
                "name": [
                    {
                        "use": "official",
                        "family": "Al-Saudi",
                        "given": [
                            "Khalid",
                            "Abdulrahman"
                        ]
                    }
                ],
                "gender": "male",
                "birthDate": "1985-06-15",
                "address": [
                    {
                        "use": "home",
                        "text": "Al-Khobar, Eastern Province, Saudi Arabia",
                        "city": "Al-Khobar",
                        "country": "SA"
                    }
                ],
                "communication": [
                    {
                        "language": {
                            "coding": [
                                {
                                    "system": "urn:ietf:bcp:47",
                                    "code": "ar-SA"
                                }
                            ]
                        },
                        "preferred": true
                    }
                ]
            },
            "request": {
                "method": "POST",
                "url": "Patient"
            }
        },
        {
            "fullUrl": "urn:uuid:encounter-cardiology-04",
            "resource": {
                "resourceType": "Encounter",
                "status": "finished",
                "class": {
                    "system": "http://terminology.hl7.org/CodeSystem/v3-ActCode",
                    "code": "AMB"
                },
                "subject": {
                    "reference": "urn:uuid:patient-khalid-alsaudi-04"
                },
                "period": {
                    "start": "2025-07-23T08:30:00+03:00",
                    "end": "2025-07-23T09:30:00+03:00"
                },
                "reasonCode": [
                    {
                        "text": "Chest pain and palpitations during exercise at gym"
                    }
                ]
            },
            "request": {
                "method": "POST",
                "url": "Encounter"
            }
        },
        {
            "fullUrl": "urn:uuid:condition-angina-04",
            "resource": {
                "resourceType": "Condition",
                "clinicalStatus": {
                    "coding": [
                        {
                            "system": "http://terminology.hl7.org/CodeSystem/condition-clinical",
                            "code": "active"
                        }
                    ]
                },
                "code": {
                    "coding": [
                        {
                            "system": "http://hl7.org/fhir/sid/icd-10-cm",
                            "code": "I20.9",
                            "display": "Angina pectoris, unspecified"
                        }
                    ]
                },
                "subject": {
                    "reference": "urn:uuid:patient-khalid-alsaudi-04"
                }
            },
            "request": {
                "method": "POST",
                "url": "Condition"
            }
        },
        {
            "fullUrl": "urn:uuid:condition-tobacco-use-04",
            "resource": {
                "resourceType": "Condition",
                "clinicalStatus": {
                    "coding": [
                        {
                            "system": "http://terminology.hl7.org/CodeSystem/condition-clinical",
                            "code": "active"
                        }
                    ]
                },
                "code": {
                    "coding": [
                        {
                            "system": "http://hl7.org/fhir/sid/icd-10-cm",
                            "code": "Z87.891",
                            "display": "Personal history of nicotine dependence"
                        }
                    ]
                },
                "subject": {
                    "reference": "urn:uuid:patient-khalid-alsaudi-04"
                }
            },
            "request": {
                "method": "POST",
                "url": "Condition"
            }
        },
        {
            "fullUrl": "urn:uuid:obs-ecg-04",
            "resource": {
                "resourceType": "Observation",
                "status": "final",
                "category": [
                    {
                        "coding": [
                            {
                                "system": "http://terminology.hl7.org/CodeSystem/observation-category",
                                "code": "procedure"
                            }
                        ]
                    }
                ],
                "code": {
                    "coding": [
                        {
                            "system": "http://loinc.org",
                            "code": "11524-6",
                            "display": "EKG study"
                        }
                    ]
                },
                "subject": {
                    "reference": "urn:uuid:patient-khalid-alsaudi-04"
                },
                "valueString": "ST-segment depression in leads V4-V6 during stress test at 85% max heart rate"
            },
            "request": {
                "method": "POST",
                "url": "Observation"
            }
        },
        {
            "fullUrl": "urn:uuid:obs-bp-04",
            "resource": {
                "resourceType": "Observation",
                "status": "final",
                "category": [
                    {
                        "coding": [
                            {
                                "system": "http://terminology.hl7.org/CodeSystem/observation-category",
                                "code": "vital-signs"
                            }
                        ]
                    }
                ],
                "code": {
                    "coding": [
                        {
                            "system": "http://loinc.org",
                            "code": "85354-9",
                            "display": "Blood pressure panel with all children optional"
                        }
                    ]
                },
                "subject": {
                    "reference": "urn:uuid:patient-khalid-alsaudi-04"
                },
                "component": [
                    {
                        "code": {
                            "coding": [
                                {
                                    "system": "http://loinc.org",
                                    "code": "8480-6",
                                    "display": "Systolic blood pressure"
                                }
                            ]
                        },
                        "valueQuantity": {
                            "value": 138,
                            "unit": "mmHg"
                        }
                    },
                    {
                        "code": {
                            "coding": [
                                {
                                    "system": "http://loinc.org",
                                    "code": "8462-4",
                                    "display": "Diastolic blood pressure"
                                }
                            ]
                        },
                        "valueQuantity": {
                            "value": 85,
                            "unit": "mmHg"
                        }
                    }
                ]
            },
            "request": {
                "method": "POST",
                "url": "Observation"
            }
        },
        {
            "fullUrl": "urn:uuid:obs-heart-rate-04",
            "resource": {
                "resourceType": "Observation",
                "status": "final",
                "category": [
                    {
                        "coding": [
                            {
                                "system": "http://terminology.hl7.org/CodeSystem/observation-category",
                                "code": "vital-signs"
                            }
                        ]
                    }
                ],
                "code": {
                    "coding": [
                        {
                            "system": "http://loinc.org",
                            "code": "8867-4",
                            "display": "Heart rate"
                        }
                    ]
                },
                "subject": {
                    "reference": "urn:uuid:patient-khalid-alsaudi-04"
                },
                "valueQuantity": {
                    "value": 75,
                    "unit": "beats/min"
                }
            },
            "request": {
                "method": "POST",
                "url": "Observation"
            }
        },
        {
            "fullUrl": "urn:uuid:obs-cholesterol-total-04",
            "resource": {
                "resourceType": "Observation",
                "status": "final",
                "category": [
                    {
                        "coding": [
                            {
                                "system": "http://terminology.hl7.org/CodeSystem/observation-category",
                                "code": "laboratory"
                            }
                        ]
                    }
                ],
                "code": {
                    "coding": [
                        {
                            "system": "http://loinc.org",
                            "code": "2093-3",
                            "display": "Cholesterol [Mass/volume] in Serum or Plasma"
                        }
                    ]
                },
                "subject": {
                    "reference": "urn:uuid:patient-khalid-alsaudi-04"
                },
                "valueQuantity": {
                    "value": 240,
                    "unit": "mg/dL"
                }
            },
            "request": {
                "method": "POST",
                "url": "Observation"
            }
        },
        {
            "fullUrl": "urn:uuid:obs-ldl-04",
            "resource": {
                "resourceType": "Observation",
                "status": "final",
                "category": [
                    {
                        "coding": [
                            {
                                "system": "http://terminology.hl7.org/CodeSystem/observation-category",
                                "code": "laboratory"
                            }
                        ]
                    }
                ],
                "code": {
                    "coding": [
                        {
                            "system": "http://loinc.org",
                            "code": "13457-7",
                            "display": "Cholesterol in LDL [Mass/volume] in Serum or Plasma by calculation"
                        }
                    ]
                },
                "subject": {
                    "reference": "urn:uuid:patient-khalid-alsaudi-04"
                },
                "valueQuantity": {
                    "value": 165,
                    "unit": "mg/dL"
                }
            },
            "request": {
                "method": "POST",
                "url": "Observation"
            }
        },
        {
            "fullUrl": "urn:uuid:obs-hdl-04",
            "resource": {
                "resourceType": "Observation",
                "status": "final",
                "category": [
                    {
                        "coding": [
                            {
                                "system": "http://terminology.hl7.org/CodeSystem/observation-category",
                                "code": "laboratory"
                            }
                        ]
                    }
                ],
                "code": {
                    "coding": [
                        {
                            "system": "http://loinc.org",
                            "code": "2085-9",
                            "display": "Cholesterol in HDL [Mass/volume] in Serum or Plasma"
                        }
                    ]
                },
                "subject": {
                    "reference": "urn:uuid:patient-khalid-alsaudi-04"
                },
                "valueQuantity": {
                    "value": 35,
                    "unit": "mg/dL"
                }
            },
            "request": {
                "method": "POST",
                "url": "Observation"
            }
        },
        {
            "fullUrl": "urn:uuid:obs-troponin-04",
            "resource": {
                "resourceType": "Observation",
                "status": "final",
                "category": [
                    {
                        "coding": [
                            {
                                "system": "http://terminology.hl7.org/CodeSystem/observation-category",
                                "code": "laboratory"
                            }
                        ]
                    }
                ],
                "code": {
                    "coding": [
                        {
                            "system": "http://loinc.org",
                            "code": "10839-9",
                            "display": "Troponin I.cardiac [Mass/volume] in Serum or Plasma"
                        }
                    ]
                },
                "subject": {
                    "reference": "urn:uuid:patient-khalid-alsaudi-04"
                },
                "valueString": "Negative (< 0.04 ng/mL)"
            },
            "request": {
                "method": "POST",
                "url": "Observation"
            }
        },
        {
            "fullUrl": "urn:uuid:family-member-khalid-father-04",
            "resource": {
                "resourceType": "FamilyMemberHistory",
                "status": "completed",
                "patient": {
                    "reference": "urn:uuid:patient-khalid-alsaudi-04"
                },
                "date": "2025-07-23",
                "name": "Abdulrahman Bin Mohammed (Father)",
                "relationship": {
                    "coding": [
                        {
                            "system": "http://terminology.hl7.org/CodeSystem/v3-RoleCode",
                            "code": "FTH",
                            "display": "father"
                        }
                    ]
                },
                "sex": {
                    "coding": [
                        {
                            "system": "http://hl7.org/fhir/administrative-gender",
                            "code": "male"
                        }
                    ]
                },
                "bornDate": "1950-03-20",
                "deceasedAge": {
                    "value": 55,
                    "unit": "years",
                    "system": "http://unitsofmeasure.org",
                    "code": "a"
                },
                "condition": [
                    {
                        "code": {
                            "coding": [
                                {
                                    "system": "http://snomed.info/sct",
                                    "code": "22298006",
                                    "display": "Myocardial infarction"
                                }
                            ]
                        },
                        "onsetAge": {
                            "value": 55,
                            "unit": "years",
                            "system": "http://unitsofmeasure.org",
                            "code": "a"
                        },
                        "note": [
                            {
                                "text": "Fatal ST-elevation myocardial infarction at age 55. Was a heavy smoker (2 packs/day for 30 years) with uncontrolled hypertension and high cholesterol. Refused lifestyle modifications and irregular medication compliance."
                            }
                        ]
                    },
                    {
                        "code": {
                            "coding": [
                                {
                                    "system": "http://snomed.info/sct",
                                    "code": "38341003",
                                    "display": "Hypertensive disorder"
                                }
                            ]
                        },
                        "onsetAge": {
                            "value": 45,
                            "unit": "years",
                            "system": "http://unitsofmeasure.org",
                            "code": "a"
                        },
                        "note": [
                            {
                                "text": "Hypertension diagnosed at age 45. Poorly controlled with systolic pressures often >180 mmHg. Non-compliant with medications and lifestyle recommendations."
                            }
                        ]
                    }
                ]
            },
            "request": {
                "method": "POST",
                "url": "FamilyMemberHistory"
            }
        },
        {
            "fullUrl": "urn:uuid:family-member-khalid-grandfather-04",
            "resource": {
                "resourceType": "FamilyMemberHistory",
                "status": "completed",
                "patient": {
                    "reference": "urn:uuid:patient-khalid-alsaudi-04"
                },
                "date": "2025-07-23",
                "name": "Mohammed Bin Abdullah (Paternal Grandfather)",
                "relationship": {
                    "coding": [
                        {
                            "system": "http://terminology.hl7.org/CodeSystem/v3-RoleCode",
                            "code": "PGRFTH",
                            "display": "paternal grandfather"
                        }
                    ]
                },
                "sex": {
                    "coding": [
                        {
                            "system": "http://hl7.org/fhir/administrative-gender",
                            "code": "male"
                        }
                    ]
                },
                "bornDate": "1925-01-10",
                "deceasedAge": {
                    "value": 60,
                    "unit": "years",
                    "system": "http://unitsofmeasure.org",
                    "code": "a"
                },
                "condition": [
                    {
                        "code": {
                            "coding": [
                                {
                                    "system": "http://snomed.info/sct",
                                    "code": "22298006",
                                    "display": "Myocardial infarction"
                                }
                            ]
                        },
                        "onsetAge": {
                            "value": 60,
                            "unit": "years",
                            "system": "http://unitsofmeasure.org",
                            "code": "a"
                        },
                        "note": [
                            {
                                "text": "Sudden cardiac death from massive myocardial infarction at age 60. Known to have chest pain episodes but never sought medical care. Heavy smoker and worked in physically demanding job."
                            }
                        ]
                    }
                ]
            },
            "request": {
                "method": "POST",
                "url": "FamilyMemberHistory"
            }
        },
        {
            "fullUrl": "urn:uuid:family-member-khalid-mother-04",
            "resource": {
                "resourceType": "FamilyMemberHistory",
                "status": "completed",
                "patient": {
                    "reference": "urn:uuid:patient-khalid-alsaudi-04"
                },
                "date": "2025-07-23",
                "name": "Noura Bint Salem (Mother)",
                "relationship": {
                    "coding": [
                        {
                            "system": "http://terminology.hl7.org/CodeSystem/v3-RoleCode",
                            "code": "MTH",
                            "display": "mother"
                        }
                    ]
                },
                "sex": {
                    "coding": [
                        {
                            "system": "http://hl7.org/fhir/administrative-gender",
                            "code": "female"
                        }
                    ]
                },
                "bornDate": "1960-08-12",
                "condition": [
                    {
                        "code": {
                            "coding": [
                                {
                                    "system": "http://snomed.info/sct",
                                    "code": "38341003",
                                    "display": "Hypertensive disorder"
                                }
                            ]
                        },
                        "onsetAge": {
                            "value": 50,
                            "unit": "years",
                            "system": "http://unitsofmeasure.org",
                            "code": "a"
                        },
                        "note": [
                            {
                                "text": "Hypertension diagnosed at age 50 during routine screening. Well-controlled with ACE inhibitor (enalapril 10mg daily). Regular monitoring and good medication compliance."
                            }
                        ]
                    },
                    {
                        "code": {
                            "coding": [
                                {
                                    "system": "http://snomed.info/sct",
                                    "code": "13644009",
                                    "display": "Hypercholesterolemia"
                                }
                            ]
                        },
                        "onsetAge": {
                            "value": 55,
                            "unit": "years",
                            "system": "http://unitsofmeasure.org",
                            "code": "a"
                        },
                        "note": [
                            {
                                "text": "High cholesterol diagnosed 10 years ago. Managed with atorvastatin 20mg daily and dietary modifications. LDL maintained <100 mg/dL with treatment."
                            }
                        ]
                    }
                ]
            },
            "request": {
                "method": "POST",
                "url": "FamilyMemberHistory"
            }
        },
        {
            "fullUrl": "urn:uuid:family-member-khalid-brother-04",
            "resource": {
                "resourceType": "FamilyMemberHistory",
                "status": "completed",
                "patient": {
                    "reference": "urn:uuid:patient-khalid-alsaudi-04"
                },
                "date": "2025-07-23",
                "name": "Saad Bin Abdulrahman (Younger Brother)",
                "relationship": {
                    "coding": [
                        {
                            "system": "http://terminology.hl7.org/CodeSystem/v3-RoleCode",
                            "code": "BRO",
                            "display": "brother"
                        }
                    ]
                },
                "sex": {
                    "coding": [
                        {
                            "system": "http://hl7.org/fhir/administrative-gender",
                            "code": "male"
                        }
                    ]
                },
                "bornDate": "1990-11-28",
                "condition": [
                    {
                        "code": {
                            "coding": [
                                {
                                    "system": "http://snomed.info/sct",
                                    "code": "38341003",
                                    "display": "Hypertensive disorder"
                                }
                            ]
                        },
                        "onsetAge": {
                            "value": 34,
                            "unit": "years",
                            "system": "http://unitsofmeasure.org",
                            "code": "a"
                        },
                        "note": [
                            {
                                "text": "Recently diagnosed with hypertension at age 34 during pre-employment physical. Started on lifestyle modifications and lisinopril 5mg daily. Concerned about family history and working on smoking cessation."
                            }
                        ]
                    }
                ]
            },
            "request": {
                "method": "POST",
                "url": "FamilyMemberHistory"
            }
        },
        {
            "fullUrl": "urn:uuid:svc-req-coronary-angiography-04",
            "resource": {
                "resourceType": "ServiceRequest",
                "status": "active",
                "intent": "order",
                "category": [
                    {
                        "coding": [
                            {
                                "system": "http://terminology.hl7.org/CodeSystem/servicerequest-category",
                                "code": "imaging"
                            }
                        ]
                    }
                ],
                "code": {
                    "coding": [
                        {
                            "system": "http://loinc.org",
                            "code": "18756-7",
                            "display": "Coronary angiography"
                        }
                    ],
                    "text": "Coronary Angiography"
                },
                "subject": {
                    "reference": "urn:uuid:patient-khalid-alsaudi-04"
                },
                "occurrenceDateTime": "2025-08-05T10:00:00+03:00",
                "priority": "urgent",
                "note": [
                    {
                        "text": "Urgent coronary angiography to evaluate extent of coronary artery disease following positive stress test"
                    }
                ]
            },
            "request": {
                "method": "POST",
                "url": "ServiceRequest"
            }
        },
        {
            "fullUrl": "urn:uuid:svc-req-echocardiogram-04",
            "resource": {
                "resourceType": "ServiceRequest",
                "status": "active",
                "intent": "order",
                "category": [
                    {
                        "coding": [
                            {
                                "system": "http://terminology.hl7.org/CodeSystem/servicerequest-category",
                                "code": "imaging"
                            }
                        ]
                    }
                ],
                "code": {
                    "coding": [
                        {
                            "system": "http://loinc.org",
                            "code": "34552-0",
                            "display": "Echocardiography"
                        }
                    ],
                    "text": "Echocardiogram"
                },
                "subject": {
                    "reference": "urn:uuid:patient-khalid-alsaudi-04"
                },
                "occurrenceDateTime": "2025-07-30T14:00:00+03:00",
                "priority": "routine",
                "note": [
                    {
                        "text": "Evaluate left ventricular function and wall motion abnormalities"
                    }
                ]
            },
            "request": {
                "method": "POST",
                "url": "ServiceRequest"
            }
        },
        {
            "fullUrl": "urn:uuid:svc-req-smoking-cessation-04",
            "resource": {
                "resourceType": "ServiceRequest",
                "status": "active",
                "intent": "order",
                "category": [
                    {
                        "coding": [
                            {
                                "system": "http://terminology.hl7.org/CodeSystem/servicerequest-category",
                                "code": "education"
                            }
                        ]
                    }
                ],
                "code": {
                    "text": "Smoking Cessation Counseling"
                },
                "subject": {
                    "reference": "urn:uuid:patient-khalid-alsaudi-04"
                },
                "priority": "routine",
                "note": [
                    {
                        "text": "Comprehensive smoking cessation program including behavioral counseling and pharmacotherapy options"
                    }
                ]
            },
            "request": {
                "method": "POST",
                "url": "ServiceRequest"
            }
        },
        {
            "fullUrl": "urn:uuid:svc-req-cardiac-rehab-04",
            "resource": {
                "resourceType": "ServiceRequest",
                "status": "active",
                "intent": "order",
                "category": [
                    {
                        "coding": [
                            {
                                "system": "http://terminology.hl7.org/CodeSystem/servicerequest-category",
                                "code": "education"
                            }
                        ]
                    }
                ],
                "code": {
                    "text": "Cardiac Rehabilitation Program"
                },
                "subject": {
                    "reference": "urn:uuid:patient-khalid-alsaudi-04"
                },
                "priority": "routine",
                "note": [
                    {
                        "text": "Supervised exercise program and cardiac diet education following angiography results"
                    }
                ]
            },
            "request": {
                "method": "POST",
                "url": "ServiceRequest"
            }
        },
        {
            "fullUrl": "urn:uuid:medication-req-aspirin-04",
            "resource": {
                "resourceType": "MedicationRequest",
                "status": "active",
                "intent": "order",
                "medicationCodeableConcept": {
                    "coding": [
                        {
                            "system": "http://www.nlm.nih.gov/research/umls/rxnorm",
                            "code": "1191",
                            "display": "Aspirin"
                        }
                    ]
                },
                "subject": {
                    "reference": "urn:uuid:patient-khalid-alsaudi-04"
                },
                "dosageInstruction": [
                    {
                        "text": "81mg orally daily for cardioprotection",
                        "timing": {
                            "repeat": {
                                "frequency": 1,
                                "period": 1,
                                "periodUnit": "d"
                            }
                        },
                        "route": {
                            "coding": [
                                {
                                    "system": "http://snomed.info/sct",
                                    "code": "26643006",
                                    "display": "Oral route"
                                }
                            ]
                        },
                        "doseAndRate": [
                            {
                                "doseQuantity": {
                                    "value": 81,
                                    "unit": "mg"
                                }
                            }
                        ]
                    }
                ],
                "dispenseRequest": {
                    "quantity": {
                        "value": 90,
                        "unit": "tablets"
                    }
                }
            },
            "request": {
                "method": "POST",
                "url": "MedicationRequest"
            }
        },
        {
            "fullUrl": "urn:uuid:medication-req-atorvastatin-04",
            "resource": {
                "resourceType": "MedicationRequest",
                "status": "active",
                "intent": "order",
                "medicationCodeableConcept": {
                    "coding": [
                        {
                            "system": "http://www.nlm.nih.gov/research/umls/rxnorm",
                            "code": "83367",
                            "display": "Atorvastatin"
                        }
                    ]
                },
                "subject": {
                    "reference": "urn:uuid:patient-khalid-alsaudi-04"
                },
                "dosageInstruction": [
                    {
                        "text": "40mg orally once daily in the evening",
                        "timing": {
                            "repeat": {
                                "frequency": 1,
                                "period": 1,
                                "periodUnit": "d",
                                "when": [
                                    "HS"
                                ]
                            }
                        },
                        "route": {
                            "coding": [
                                {
                                    "system": "http://snomed.info/sct",
                                    "code": "26643006",
                                    "display": "Oral route"
                                }
                            ]
                        },
                        "doseAndRate": [
                            {
                                "doseQuantity": {
                                    "value": 40,
                                    "unit": "mg"
                                }
                            }
                        ]
                    }
                ],
                "dispenseRequest": {
                    "quantity": {
                        "value": 90,
                        "unit": "tablets"
                    }
                }
            },
            "request": {
                "method": "POST",
                "url": "MedicationRequest"
            }
        },
        {
            "fullUrl": "urn:uuid:medication-req-metoprolol-04",
            "resource": {
                "resourceType": "MedicationRequest",
                "status": "active",
                "intent": "order",
                "medicationCodeableConcept": {
                    "coding": [
                        {
                            "system": "http://www.nlm.nih.gov/research/umls/rxnorm",
                            "code": "6918",
                            "display": "Metoprolol"
                        }
                    ]
                },
                "subject": {
                    "reference": "urn:uuid:patient-khalid-alsaudi-04"
                },
                "dosageInstruction": [
                    {
                        "text": "25mg orally twice daily",
                        "timing": {
                            "repeat": {
                                "frequency": 2,
                                "period": 1,
                                "periodUnit": "d"
                            }
                        },
                        "route": {
                            "coding": [
                                {
                                    "system": "http://snomed.info/sct",
                                    "code": "26643006",
                                    "display": "Oral route"
                                }
                            ]
                        },
                        "doseAndRate": [
                            {
                                "doseQuantity": {
                                    "value": 25,
                                    "unit": "mg"
                                }
                            }
                        ]
                    }
                ],
                "dispenseRequest": {
                    "quantity": {
                        "value": 180,
                        "unit": "tablets"
                    }
                }
            },
            "request": {
                "method": "POST",
                "url": "MedicationRequest"
            }
        },
        {
            "fullUrl": "urn:uuid:appointment-cardiology-followup-04",
            "resource": {
                "resourceType": "Appointment",
                "status": "booked",
                "serviceCategory": [
                    {
                        "coding": [
                            {
                                "system": "http://terminology.hl7.org/CodeSystem/service-category",
                                "code": "3",
                                "display": "Cardiology"
                            }
                        ]
                    }
                ],
                "serviceType": [
                    {
                        "coding": [
                            {
                                "system": "http://terminology.hl7.org/CodeSystem/service-type",
                                "code": "165",
                                "display": "Cardiology"
                            }
                        ]
                    }
                ],
                "appointmentType": {
                    "coding": [
                        {
                            "system": "http://terminology.hl7.org/CodeSystem/v2-0276",
                            "code": "FOLLOWUP",
                            "display": "Follow-up"
                        }
                    ]
                },
                "reasonCode": [
                    {
                        "text": "Post-angiography follow-up and treatment plan discussion"
                    }
                ],
                "start": "2025-08-10T10:00:00+03:00",
                "end": "2025-08-10T10:30:00+03:00",
                "participant": [
                    {
                        "actor": {
                            "reference": "urn:uuid:patient-khalid-alsaudi-04"
                        },
                        "status": "accepted"
                    }
                ]
            },
            "request": {
                "method": "POST",
                "url": "Appointment"
            }
        },
        {
            "fullUrl": "urn:uuid:appointment-angiography-04",
            "resource": {
                "resourceType": "Appointment",
                "status": "booked",
                "serviceCategory": [
                    {
                        "coding": [
                            {
                                "system": "http://terminology.hl7.org/CodeSystem/service-category",
                                "code": "3",
                                "display": "Cardiology"
                            }
                        ]
                    }
                ],
                "serviceType": [
                    {
                        "coding": [
                            {
                                "system": "http://terminology.hl7.org/CodeSystem/service-type",
                                "code": "165",
                                "display": "Cardiology"
                            }
                        ]
                    }
                ],
                "appointmentType": {
                    "coding": [
                        {
                            "system": "http://terminology.hl7.org/CodeSystem/v2-0276",
                            "code": "ROUTINE",
                            "display": "Routine"
                        }
                    ]
                },
                "reasonCode": [
                    {
                        "text": "Coronary angiography procedure"
                    }
                ],
                "start": "2025-08-05T10:00:00+03:00",
                "end": "2025-08-05T12:00:00+03:00",
                "participant": [
                    {
                        "actor": {
                            "reference": "urn:uuid:patient-khalid-alsaudi-04"
                        },
                        "status": "accepted"
                    }
                ]
            },
            "request": {
                "method": "POST",
                "url": "Appointment"
            }
        },
        {
            "fullUrl": "urn:uuid:composition-cardiology-04",
            "resource": {
                "resourceType": "Composition",
                "status": "final",
                "type": {
                    "coding": [
                        {
                            "system": "http://loinc.org",
                            "code": "11506-3",
                            "display": "Provider-unspecified progress note"
                        }
                    ]
                },
                "subject": {
                    "reference": "urn:uuid:patient-khalid-alsaudi-04"
                },
                "encounter": {
                    "reference": "urn:uuid:encounter-cardiology-04"
                },
                "date": "2025-07-23T09:00:00+03:00",
                "title": "Cardiac Evaluation - Stable Angina Pectoris",
                "section": [
                    {
                        "title": "Chief Complaint",
                        "code": {
                            "coding": [
                                {
                                    "system": "http://loinc.org",
                                    "code": "10154-3",
                                    "display": "Chief complaint"
                                }
                            ]
                        },
                        "text": {
                            "status": "generated",
                            "div": "<div xmlns=\"http://www.w3.org/1999/xhtml\">Chest pain and palpitations during exercise at gym</div>"
                        }
                    },
                    {
                        "title": "Subjective",
                        "code": {
                            "coding": [
                                {
                                    "system": "http://loinc.org",
                                    "code": "61150-9",
                                    "display": "Subjective"
                                }
                            ]
                        },
                        "text": {
                            "status": "generated",
                            "div": "<div xmlns=\"http://www.w3.org/1999/xhtml\">40-year-old Saudi male engineer reports substernal chest pressure during moderate exercise at gym, particularly during treadmill running. Pain rated 6/10, radiates to left arm, associated with shortness of breath and palpitations. Symptoms resolve with rest after 5-10 minutes. No symptoms at rest. Recently started intensive fitness program. Smokes 1 pack/day for 15 years (15 pack-year history). Strong family history of premature cardiovascular disease - father had fatal MI at age 55, paternal grandfather died from MI at age 60.</div>"
                        }
                    },
                    {
                        "title": "Objective",
                        "code": {
                            "coding": [
                                {
                                    "system": "http://loinc.org",
                                    "code": "61149-1",
                                    "display": "Objective"
                                }
                            ]
                        },
                        "text": {
                            "status": "generated",
                            "div": "<div xmlns=\"http://www.w3.org/1999/xhtml\">Vital Signs: BP 138/85 mmHg (stage 1 hypertension), HR 75 bpm regular, afebrile. BMI: 28.5 (overweight). Cardiac exam reveals normal S1/S2, no murmurs, gallops, or rubs. Stress ECG shows ST-segment depression in lateral leads (V4-V6) at 85% max heart rate, consistent with ischemia. Laboratory: Total cholesterol 240 mg/dL (high), LDL 165 mg/dL (high), HDL 35 mg/dL (low), triglycerides calculated. Cardiac troponin I negative.</div>"
                        },
                        "entry": [
                            {
                                "reference": "urn:uuid:obs-bp-04"
                            },
                            {
                                "reference": "urn:uuid:obs-heart-rate-04"
                            },
                            {
                                "reference": "urn:uuid:obs-ecg-04"
                            },
                            {
                                "reference": "urn:uuid:obs-cholesterol-total-04"
                            },
                            {
                                "reference": "urn:uuid:obs-ldl-04"
                            },
                            {
                                "reference": "urn:uuid:obs-hdl-04"
                            },
                            {
                                "reference": "urn:uuid:obs-troponin-04"
                            }
                        ]
                    },
                    {
                        "title": "Assessment",
                        "code": {
                            "coding": [
                                {
                                    "system": "http://loinc.org",
                                    "code": "51847-2",
                                    "display": "Assessment"
                                }
                            ]
                        },
                        "text": {
                            "status": "generated",
                            "div": "<div xmlns=\"http://www.w3.org/1999/xhtml\">1. Stable angina pectoris with positive stress test (ICD-10: I20.9)<br/>2. High cardiovascular risk profile including:<br/>   - Current tobacco use disorder (15 pack-year history)<br/>   - Dyslipidemia (elevated total cholesterol, LDL; low HDL)<br/>   - Stage 1 hypertension<br/>   - Family history of premature coronary artery disease<br/>   - Overweight (BMI 28.5)<br/>3. Likely significant coronary artery disease requiring angiographic evaluation<br/>4. No evidence of acute coronary syndrome (negative troponin)</div>"
                        },
                        "entry": [
                            {
                                "reference": "urn:uuid:condition-angina-04"
                            },
                            {
                                "reference": "urn:uuid:condition-tobacco-use-04"
                            }
                        ]
                    },
                    {
                        "title": "Planning",
                        "code": {
                            "coding": [
                                {
                                    "system": "http://loinc.org",
                                    "code": "18776-5",
                                    "display": "Plan"
                                }
                            ]
                        },
                        "text": {
                            "status": "generated",
                            "div": "<div xmlns=\"http://www.w3.org/1999/xhtml\"><p><b>Medications:</b></p><ul><li>Aspirin 81mg daily (cardioprotection)</li><li>Atorvastatin 40mg daily (lipid management, target LDL &lt;100 mg/dL)</li><li>Metoprolol 25mg twice daily (heart rate control, anti-ischemic effect)</li></ul><p><b>Diagnostic Orders:</b></p><ul><li>Urgent coronary angiography to evaluate extent of coronary artery disease</li><li>Echocardiogram to assess LV function and wall motion</li></ul><p><b>Referrals/Education:</b></p><ul><li>Smoking cessation counseling (priority intervention)</li><li>Cardiac rehabilitation program pending angiography results</li></ul><p><b>Follow-up:</b></p><ul><li>Angiography scheduled within 2 weeks</li><li>Cardiology follow-up post-procedure for treatment planning</li><li>No strenuous exercise until cleared by cardiology</li></ul><p><b>Lifestyle Modifications:</b></p><ul><li>Immediate smoking cessation</li><li>Cardiac diet (low sodium, low saturated fat)</li><li>Gradual exercise program under supervision</li><li>Weight management (target BMI &lt;25)</li></ul></div>"
                        },
                        "entry": [
                            {
                                "reference": "urn:uuid:medication-req-aspirin-04"
                            },
                            {
                                "reference": "urn:uuid:medication-req-atorvastatin-04"
                            },
                            {
                                "reference": "urn:uuid:medication-req-metoprolol-04"
                            },
                            {
                                "reference": "urn:uuid:svc-req-coronary-angiography-04"
                            },
                            {
                                "reference": "urn:uuid:svc-req-echocardiogram-04"
                            },
                            {
                                "reference": "urn:uuid:svc-req-smoking-cessation-04"
                            },
                            {
                                "reference": "urn:uuid:svc-req-cardiac-rehab-04"
                            },
                            {
                                "reference": "urn:uuid:appointment-angiography-04"
                            },
                            {
                                "reference": "urn:uuid:appointment-cardiology-followup-04"
                            }
                        ]
                    },
                    {
                        "title": "Family History",
                        "code": {
                            "coding": [
                                {
                                    "system": "http://loinc.org",
                                    "code": "10157-2",
                                    "display": "Family history"
                                }
                            ]
                        },
                        "text": {
                            "status": "generated",
                            "div": "<div xmlns=\"http://www.w3.org/1999/xhtml\">Significant family history of premature cardiovascular disease. Father suffered fatal myocardial infarction at age 55, was a heavy smoker with uncontrolled hypertension. Paternal grandfather also died from heart attack at age 60. Mother (65 years) has well-controlled hypertension and high cholesterol. Younger brother (35 years) recently diagnosed with hypertension. Strong pattern of cardiovascular risk factors including smoking, hypertension, and early cardiac events in male lineage, indicating genetic predisposition requiring aggressive risk factor modification.</div>"
                        },
                        "entry": [
                            {
                                "reference": "urn:uuid:family-member-khalid-father-04"
                            },
                            {
                                "reference": "urn:uuid:family-member-khalid-grandfather-04"
                            },
                            {
                                "reference": "urn:uuid:family-member-khalid-mother-04"
                            },
                            {
                                "reference": "urn:uuid:family-member-khalid-brother-04"
                            }
                        ]
                    }
                ]
            },
            "request": {
                "method": "POST",
                "url": "Composition"
            }
        }
    ]
}