{
    "resourceType": "Bundle",
    "type": "transaction",
    "entry": [
        {
            "fullUrl": "urn:uuid:patient-mohammed-alnasser-06",
            "resource": {
                "resourceType": "Patient",
                "active": true,
                "identifier": [
                    {
                        "use": "usual",
                        "type": {
                            "coding": [
                                {
                                    "system": "http://terminology.hl7.org/CodeSystem/v2-0203",
                                    "code": "MR"
                                }
                            ]
                        },
                        "system": "http://moh.gov.sa/mrn",
                        "value": "SA-06789012"
                    },
                    {
                        "use": "official",
                        "type": {
                            "coding": [
                                {
                                    "system": "http://terminology.hl7.org/CodeSystem/v2-0203",
                                    "code": "NI"
                                }
                            ]
                        },
                        "system": "http://saudi.gov.sa/national-id",
                        "value": "2054501234"
                    }
                ],
                "name": [
                    {
                        "use": "official",
                        "family": "Al-Nasser",
                        "given": [
                            "Mohammed",
                            "Ali"
                        ]
                    }
                ],
                "gender": "male",
                "birthDate": "1945-01-10",
                "address": [
                    {
                        "use": "home",
                        "text": "Al-Murabba District, Riyadh, Saudi Arabia",
                        "city": "Riyadh",
                        "country": "SA"
                    }
                ],
                "communication": [
                    {
                        "language": {
                            "coding": [
                                {
                                    "system": "urn:ietf:bcp:47",
                                    "code": "ar-SA"
                                }
                            ]
                        },
                        "preferred": true
                    }
                ]
            },
            "request": {
                "method": "POST",
                "url": "Patient"
            }
        },
        {
            "fullUrl": "urn:uuid:encounter-geriatric-06",
            "resource": {
                "resourceType": "Encounter",
                "status": "finished",
                "class": {
                    "system": "http://terminology.hl7.org/CodeSystem/v3-ActCode",
                    "code": "AMB"
                },
                "subject": {
                    "reference": "urn:uuid:patient-mohammed-alnasser-06"
                },
                "period": {
                    "start": "2025-07-23T10:00:00+03:00",
                    "end": "2025-07-23T11:30:00+03:00"
                },
                "reasonCode": [
                    {
                        "text": "Progressive memory loss and confusion, family concerned about forgetfulness"
                    }
                ]
            },
            "request": {
                "method": "POST",
                "url": "Encounter"
            }
        },
        {
            "fullUrl": "urn:uuid:condition-dementia-06",
            "resource": {
                "resourceType": "Condition",
                "clinicalStatus": {
                    "coding": [
                        {
                            "system": "http://terminology.hl7.org/CodeSystem/condition-clinical",
                            "code": "active"
                        }
                    ]
                },
                "code": {
                    "coding": [
                        {
                            "system": "http://hl7.org/fhir/sid/icd-10-cm",
                            "code": "F03.90",
                            "display": "Unspecified dementia without behavioral disturbance"
                        }
                    ]
                },
                "subject": {
                    "reference": "urn:uuid:patient-mohammed-alnasser-06"
                }
            },
            "request": {
                "method": "POST",
                "url": "Condition"
            }
        },
        {
            "fullUrl": "urn:uuid:obs-mmse-06",
            "resource": {
                "resourceType": "Observation",
                "status": "final",
                "category": [
                    {
                        "coding": [
                            {
                                "system": "http://terminology.hl7.org/CodeSystem/observation-category",
                                "code": "survey"
                            }
                        ]
                    }
                ],
                "code": {
                    "coding": [
                        {
                            "system": "http://loinc.org",
                            "code": "72133-2",
                            "display": "Mini-Mental State Examination [MMSE]"
                        }
                    ]
                },
                "subject": {
                    "reference": "urn:uuid:patient-mohammed-alnasser-06"
                },
                "valueQuantity": {
                    "value": 20,
                    "system": "http://unitsofmeasure.org",
                    "code": "{score}"
                }
            },
            "request": {
                "method": "POST",
                "url": "Observation"
            }
        },
        {
            "fullUrl": "urn:uuid:family-member-mohammed-brother-06",
            "resource": {
                "resourceType": "FamilyMemberHistory",
                "status": "completed",
                "patient": {
                    "reference": "urn:uuid:patient-mohammed-alnasser-06"
                },
                "date": "2025-07-23",
                "name": "Ibrahim Bin Ali (Brother)",
                "relationship": {
                    "coding": [
                        {
                            "system": "http://terminology.hl7.org/CodeSystem/v3-RoleCode",
                            "code": "BRO",
                            "display": "brother"
                        }
                    ]
                },
                "sex": {
                    "coding": [
                        {
                            "system": "http://hl7.org/fhir/administrative-gender",
                            "code": "male"
                        }
                    ]
                },
                "bornDate": "1940-05-15",
                "deceasedAge": {
                    "value": 78,
                    "unit": "years",
                    "system": "http://unitsofmeasure.org",
                    "code": "a"
                },
                "condition": [
                    {
                        "code": {
                            "coding": [
                                {
                                    "system": "http://snomed.info/sct",
                                    "code": "26929004",
                                    "display": "Alzheimer's disease"
                                }
                            ]
                        },
                        "onsetAge": {
                            "value": 75,
                            "unit": "years",
                            "system": "http://unitsofmeasure.org",
                            "code": "a"
                        },
                        "note": [
                            {
                                "text": "Alzheimer's disease diagnosed at age 75. Progressive cognitive decline over 3 years before death."
                            }
                        ]
                    }
                ]
            },
            "request": {
                "method": "POST",
                "url": "FamilyMemberHistory"
            }
        },
        {
            "fullUrl": "urn:uuid:svc-req-brain-mri-06",
            "resource": {
                "resourceType": "ServiceRequest",
                "status": "active",
                "intent": "order",
                "category": [
                    {
                        "coding": [
                            {
                                "system": "http://terminology.hl7.org/CodeSystem/servicerequest-category",
                                "code": "imaging"
                            }
                        ]
                    }
                ],
                "code": {
                    "coding": [
                        {
                            "system": "http://loinc.org",
                            "code": "36896-3",
                            "display": "MRI Brain"
                        }
                    ],
                    "text": "Brain MRI with contrast"
                },
                "subject": {
                    "reference": "urn:uuid:patient-mohammed-alnasser-06"
                },
                "occurrenceDateTime": "2025-08-02T14:00:00+03:00",
                "priority": "routine",
                "note": [
                    {
                        "text": "Evaluate for structural brain changes, rule out normal pressure hydrocephalus, assess for vascular dementia"
                    }
                ]
            },
            "request": {
                "method": "POST",
                "url": "ServiceRequest"
            }
        },
        {
            "fullUrl": "urn:uuid:svc-req-neurology-referral-06",
            "resource": {
                "resourceType": "ServiceRequest",
                "status": "active",
                "intent": "order",
                "category": [
                    {
                        "coding": [
                            {
                                "system": "http://terminology.hl7.org/CodeSystem/servicerequest-category",
                                "code": "referral"
                            }
                        ]
                    }
                ],
                "code": {
                    "text": "Neurology Consultation"
                },
                "subject": {
                    "reference": "urn:uuid:patient-mohammed-alnasser-06"
                },
                "priority": "routine",
                "note": [
                    {
                        "text": "Comprehensive neurological evaluation for dementia workup and treatment recommendations"
                    }
                ]
            },
            "request": {
                "method": "POST",
                "url": "ServiceRequest"
            }
        },
        {
            "fullUrl": "urn:uuid:medication-req-donepezil-06",
            "resource": {
                "resourceType": "MedicationRequest",
                "status": "active",
                "intent": "order",
                "medicationCodeableConcept": {
                    "coding": [
                        {
                            "system": "http://www.nlm.nih.gov/research/umls/rxnorm",
                            "code": "135447",
                            "display": "Donepezil"
                        }
                    ]
                },
                "subject": {
                    "reference": "urn:uuid:patient-mohammed-alnasser-06"
                },
                "dosageInstruction": [
                    {
                        "text": "5mg orally once daily at bedtime",
                        "timing": {
                            "repeat": {
                                "frequency": 1,
                                "period": 1,
                                "periodUnit": "d",
                                "when": [
                                    "HS"
                                ]
                            }
                        },
                        "route": {
                            "coding": [
                                {
                                    "system": "http://snomed.info/sct",
                                    "code": "26643006",
                                    "display": "Oral route"
                                }
                            ]
                        },
                        "doseAndRate": [
                            {
                                "doseQuantity": {
                                    "value": 5,
                                    "unit": "mg"
                                }
                            }
                        ]
                    }
                ],
                "dispenseRequest": {
                    "quantity": {
                        "value": 30,
                        "unit": "tablets"
                    }
                }
            },
            "request": {
                "method": "POST",
                "url": "MedicationRequest"
            }
        },
        {
            "fullUrl": "urn:uuid:appointment-neurology-06",
            "resource": {
                "resourceType": "Appointment",
                "status": "booked",
                "serviceCategory": [
                    {
                        "coding": [
                            {
                                "system": "http://terminology.hl7.org/CodeSystem/service-category",
                                "code": "11",
                                "display": "Neurology"
                            }
                        ]
                    }
                ],
                "serviceType": [
                    {
                        "coding": [
                            {
                                "system": "http://terminology.hl7.org/CodeSystem/service-type",
                                "code": "310",
                                "display": "Neurology"
                            }
                        ]
                    }
                ],
                "appointmentType": {
                    "coding": [
                        {
                            "system": "http://terminology.hl7.org/CodeSystem/v2-0276",
                            "code": "ROUTINE",
                            "display": "Routine"
                        }
                    ]
                },
                "reasonCode": [
                    {
                        "text": "Neurological evaluation for dementia and cognitive assessment"
                    }
                ],
                "start": "2025-08-15T10:00:00+03:00",
                "end": "2025-08-15T11:00:00+03:00",
                "participant": [
                    {
                        "actor": {
                            "reference": "urn:uuid:patient-mohammed-alnasser-06"
                        },
                        "status": "accepted"
                    }
                ]
            },
            "request": {
                "method": "POST",
                "url": "Appointment"
            }
        },
        {
            "fullUrl": "urn:uuid:composition-geriatric-06",
            "resource": {
                "resourceType": "Composition",
                "status": "final",
                "type": {
                    "coding": [
                        {
                            "system": "http://loinc.org",
                            "code": "11506-3",
                            "display": "Provider-unspecified progress note"
                        }
                    ]
                },
                "subject": {
                    "reference": "urn:uuid:patient-mohammed-alnasser-06"
                },
                "encounter": {
                    "reference": "urn:uuid:encounter-geriatric-06"
                },
                "date": "2025-07-23T10:45:00+03:00",
                "title": "Geriatric Assessment - Dementia Evaluation",
                "section": [
                    {
                        "title": "Chief Complaint",
                        "code": {
                            "coding": [
                                {
                                    "system": "http://loinc.org",
                                    "code": "10154-3",
                                    "display": "Chief complaint"
                                }
                            ]
                        },
                        "text": {
                            "status": "generated",
                            "div": "<div xmlns=\"http://www.w3.org/1999/xhtml\">Progressive memory loss and confusion, family concerned about forgetfulness</div>"
                        }
                    },
                    {
                        "title": "Subjective",
                        "code": {
                            "coding": [
                                {
                                    "system": "http://loinc.org",
                                    "code": "61150-9",
                                    "display": "Subjective"
                                }
                            ]
                        },
                        "text": {
                            "status": "generated",
                            "div": "<div xmlns=\"http://www.w3.org/1999/xhtml\">80-year-old retired government employee brought by family for progressive memory loss over 18 months. Initially forgetting recent conversations, now unable to recognize familiar faces occasionally. Gets lost in familiar neighborhood. Repetitive questioning. Family reports personality changes with increased irritability. Brother died of Alzheimer's disease at age 78. Still independent for basic ADLs but requires supervision for complex tasks.</div>"
                        }
                    },
                    {
                        "title": "Objective",
                        "code": {
                            "coding": [
                                {
                                    "system": "http://loinc.org",
                                    "code": "61149-1",
                                    "display": "Objective"
                                }
                            ]
                        },
                        "text": {
                            "status": "generated",
                            "div": "<div xmlns=\"http://www.w3.org/1999/xhtml\">Alert, cooperative elderly man. MMSE score: 20/30 (mild cognitive impairment). Deficits in orientation, recall, and attention. Language relatively preserved. No focal neurological deficits. Gait stable. Vital signs stable.</div>"
                        },
                        "entry": [
                            {
                                "reference": "urn:uuid:obs-mmse-06"
                            }
                        ]
                    },
                    {
                        "title": "Assessment",
                        "code": {
                            "coding": [
                                {
                                    "system": "http://loinc.org",
                                    "code": "51847-2",
                                    "display": "Assessment"
                                }
                            ]
                        },
                        "text": {
                            "status": "generated",
                            "div": "<div xmlns=\"http://www.w3.org/1999/xhtml\">1. Unspecified dementia without behavioral disturbance (ICD-10: F03.90)<br/>2. Likely Alzheimer's disease given family history and presentation<br/>3. Functional decline requiring increased supervision<br/>4. Family history of Alzheimer's disease (brother affected)</div>"
                        },
                        "entry": [
                            {
                                "reference": "urn:uuid:condition-dementia-06"
                            }
                        ]
                    },
                    {
                        "title": "Planning",
                        "code": {
                            "coding": [
                                {
                                    "system": "http://loinc.org",
                                    "code": "18776-5",
                                    "display": "Plan"
                                }
                            ]
                        },
                        "text": {
                            "status": "generated",
                            "div": "<div xmlns=\"http://www.w3.org/1999/xhtml\"><p><b>Medications:</b></p><ul><li>Donepezil 5mg daily (cholinesterase inhibitor for cognitive symptoms)</li></ul><p><b>Diagnostic Orders:</b></p><ul><li>Brain MRI with contrast to evaluate structural changes</li></ul><p><b>Referrals:</b></p><ul><li>Neurology consultation for comprehensive dementia workup</li></ul><p><b>Follow-up:</b></p><ul><li>Return in 4 weeks to assess medication tolerance</li><li>Neurology appointment in 3 weeks</li></ul><p><b>Education and Support:</b></p><ul><li>Family education about dementia progression</li><li>Safety measures at home</li><li>Legal and financial planning discussions</li><li>Caregiver support resources</li></ul></div>"
                        },
                        "entry": [
                            {
                                "reference": "urn:uuid:medication-req-donepezil-06"
                            },
                            {
                                "reference": "urn:uuid:svc-req-brain-mri-06"
                            },
                            {
                                "reference": "urn:uuid:svc-req-neurology-referral-06"
                            },
                            {
                                "reference": "urn:uuid:appointment-neurology-06"
                            }
                        ]
                    },
                    {
                        "title": "Family History",
                        "code": {
                            "coding": [
                                {
                                    "system": "http://loinc.org",
                                    "code": "10157-2",
                                    "display": "Family history"
                                }
                            ]
                        },
                        "text": {
                            "status": "generated",
                            "div": "<div xmlns=\"http://www.w3.org/1999/xhtml\">Significant family history of neurodegenerative disease. Brother Ibrahim died at age 78 from Alzheimer's disease with 3-year progressive cognitive decline. This family history increases the probability of Alzheimer's disease as the underlying cause of patient's cognitive symptoms and guides treatment approach and family counseling.</div>"
                        },
                        "entry": [
                            {
                                "reference": "urn:uuid:family-member-mohammed-brother-06"
                            }
                        ]
                    }
                ]
            },
            "request": {
                "method": "POST",
                "url": "Composition"
            }
        }
    ]
}