{
    "resourceType": "Bundle",
    "type": "transaction",
    "entry": [
        {
            "fullUrl": "urn:uuid:patient-aisha-almutairi-03",
            "resource": {
                "resourceType": "Patient",
                "active": true,
                "identifier": [
                    {
                        "use": "usual",
                        "type": {
                            "coding": [
                                {
                                    "system": "http://terminology.hl7.org/CodeSystem/v2-0203",
                                    "code": "MR"
                                }
                            ]
                        },
                        "system": "http://moh.gov.sa/mrn",
                        "value": "SA-03456789"
                    }
                ],
                "name": [
                    {
                        "use": "official",
                        "family": "Al-Mutairi",
                        "given": [
                            "Aisha",
                            "Mohammed"
                        ]
                    }
                ],
                "gender": "female",
                "birthDate": "2015-11-08",
                "address": [
                    {
                        "use": "home",
                        "text": "Al-Aziziyah District, Dammam, Saudi Arabia",
                        "city": "Dammam",
                        "country": "SA"
                    }
                ]
            },
            "request": {
                "method": "POST",
                "url": "Patient"
            }
        },
        {
            "fullUrl": "urn:uuid:encounter-pediatric-03",
            "resource": {
                "resourceType": "Encounter",
                "status": "finished",
                "class": {
                    "system": "http://terminology.hl7.org/CodeSystem/v3-ActCode",
                    "code": "AMB",
                    "display": "ambulatory"
                },
                "subject": {
                    "reference": "urn:uuid:patient-aisha-almutairi-03"
                },
                "period": {
                    "start": "2025-07-23T14:30:00+03:00",
                    "end": "2025-07-23T15:15:00+03:00"
                },
                "reasonCode": [
                    {
                        "text": "High fever, cough, and difficulty breathing for 2 days (reported by mother)"
                    }
                ],
                "diagnosis": [
                    {
                        "condition": {
                            "reference": "urn:uuid:diag-pneumonia-03"
                        },
                        "use": {
                            "coding": [
                                {
                                    "system": "http://terminology.hl7.org/CodeSystem/diagnosis-role",
                                    "code": "DD",
                                    "display": "Discharge diagnosis"
                                }
                            ]
                        },
                        "rank": 1
                    }
                ]
            },
            "request": {
                "method": "POST",
                "url": "Encounter"
            }
        },
        {
            "fullUrl": "urn:uuid:pmh-immunizations-03",
            "resource": {
                "resourceType": "Condition",
                "clinicalStatus": {
                    "coding": [
                        {
                            "system": "http://terminology.hl7.org/CodeSystem/condition-clinical",
                            "code": "active"
                        }
                    ]
                },
                "category": [
                    {
                        "coding": [
                            {
                                "system": "http://terminology.hl7.org/CodeSystem/condition-category",
                                "code": "problem-list-item"
                            }
                        ]
                    }
                ],
                "code": {
                    "text": "Up to date immunizations"
                },
                "subject": {
                    "reference": "urn:uuid:patient-aisha-almutairi-03"
                }
            },
            "request": {
                "method": "POST",
                "url": "Condition"
            }
        },
        {
            "fullUrl": "urn:uuid:allergy-nkda-03",
            "resource": {
                "resourceType": "AllergyIntolerance",
                "clinicalStatus": {
                    "coding": [
                        {
                            "system": "http://terminology.hl7.org/CodeSystem/allergyintolerance-clinical",
                            "code": "active"
                        }
                    ]
                },
                "verificationStatus": {
                    "coding": [
                        {
                            "system": "http://terminology.hl7.org/CodeSystem/allergyintolerance-verification",
                            "code": "confirmed"
                        }
                    ]
                },
                "code": {
                    "text": "No known allergies"
                },
                "patient": {
                    "reference": "urn:uuid:patient-aisha-almutairi-03"
                }
            },
            "request": {
                "method": "POST",
                "url": "AllergyIntolerance"
            }
        },
        {
            "fullUrl": "urn:uuid:family-history-mother-asthma-03",
            "resource": {
                "resourceType": "FamilyMemberHistory",
                "status": "completed",
                "patient": {
                    "reference": "urn:uuid:patient-aisha-almutairi-03"
                },
                "relationship": {
                    "coding": [
                        {
                            "system": "http://terminology.hl7.org/CodeSystem/v3-RoleCode",
                            "code": "MTH"
                        }
                    ]
                },
                "condition": [
                    {
                        "code": {
                            "text": "Allergic Asthma"
                        }
                    }
                ]
            },
            "request": {
                "method": "POST",
                "url": "FamilyMemberHistory"
            }
        },
        {
            "fullUrl": "urn:uuid:family-history-grandmother-copd-03",
            "resource": {
                "resourceType": "FamilyMemberHistory",
                "status": "completed",
                "patient": {
                    "reference": "urn:uuid:patient-aisha-almutairi-03"
                },
                "relationship": {
                    "coding": [
                        {
                            "system": "http://terminology.hl7.org/CodeSystem/v3-RoleCode",
                            "code": "MGRMTH"
                        }
                    ]
                },
                "condition": [
                    {
                        "code": {
                            "text": "Chronic Bronchitis"
                        }
                    }
                ]
            },
            "request": {
                "method": "POST",
                "url": "FamilyMemberHistory"
            }
        },
        {
            "fullUrl": "urn:uuid:family-history-uncle-bronchiectasis-03",
            "resource": {
                "resourceType": "FamilyMemberHistory",
                "status": "completed",
                "patient": {
                    "reference": "urn:uuid:patient-aisha-almutairi-03"
                },
                "relationship": {
                    "coding": [
                        {
                            "system": "http://terminology.hl7.org/CodeSystem/v3-RoleCode",
                            "code": "PUNCLE"
                        }
                    ]
                },
                "condition": [
                    {
                        "code": {
                            "text": "Bronchiectasis"
                        }
                    }
                ]
            },
            "request": {
                "method": "POST",
                "url": "FamilyMemberHistory"
            }
        },
        {
            "fullUrl": "urn:uuid:obs-temp-03",
            "resource": {
                "resourceType": "Observation",
                "status": "final",
                "category": [
                    {
                        "coding": [
                            {
                                "system": "http://terminology.hl7.org/CodeSystem/observation-category",
                                "code": "vital-signs"
                            }
                        ]
                    }
                ],
                "code": {
                    "coding": [
                        {
                            "system": "http://loinc.org",
                            "code": "8310-5",
                            "display": "Body temperature"
                        }
                    ]
                },
                "subject": {
                    "reference": "urn:uuid:patient-aisha-almutairi-03"
                },
                "encounter": {
                    "reference": "urn:uuid:encounter-pediatric-03"
                },
                "effectiveDateTime": "2025-07-23T14:30:00+03:00",
                "valueQuantity": {
                    "value": 39.2,
                    "unit": "Celsius"
                }
            },
            "request": {
                "method": "POST",
                "url": "Observation"
            }
        },
        {
            "fullUrl": "urn:uuid:obs-hr-03",
            "resource": {
                "resourceType": "Observation",
                "status": "final",
                "category": [
                    {
                        "coding": [
                            {
                                "system": "http://terminology.hl7.org/CodeSystem/observation-category",
                                "code": "vital-signs"
                            }
                        ]
                    }
                ],
                "code": {
                    "coding": [
                        {
                            "system": "http://loinc.org",
                            "code": "8867-4",
                            "display": "Heart rate"
                        }
                    ]
                },
                "subject": {
                    "reference": "urn:uuid:patient-aisha-almutairi-03"
                },
                "encounter": {
                    "reference": "urn:uuid:encounter-pediatric-03"
                },
                "effectiveDateTime": "2025-07-23T14:30:00+03:00",
                "valueQuantity": {
                    "value": 110,
                    "unit": "beats/minute"
                }
            },
            "request": {
                "method": "POST",
                "url": "Observation"
            }
        },
        {
            "fullUrl": "urn:uuid:obs-rr-03",
            "resource": {
                "resourceType": "Observation",
                "status": "final",
                "category": [
                    {
                        "coding": [
                            {
                                "system": "http://terminology.hl7.org/CodeSystem/observation-category",
                                "code": "vital-signs"
                            }
                        ]
                    }
                ],
                "code": {
                    "coding": [
                        {
                            "system": "http://loinc.org",
                            "code": "9279-1",
                            "display": "Respiratory rate"
                        }
                    ]
                },
                "subject": {
                    "reference": "urn:uuid:patient-aisha-almutairi-03"
                },
                "encounter": {
                    "reference": "urn:uuid:encounter-pediatric-03"
                },
                "effectiveDateTime": "2025-07-23T14:30:00+03:00",
                "valueQuantity": {
                    "value": 28,
                    "unit": "breaths/minute"
                }
            },
            "request": {
                "method": "POST",
                "url": "Observation"
            }
        },
        {
            "fullUrl": "urn:uuid:obs-o2sat-03",
            "resource": {
                "resourceType": "Observation",
                "status": "final",
                "category": [
                    {
                        "coding": [
                            {
                                "system": "http://terminology.hl7.org/CodeSystem/observation-category",
                                "code": "vital-signs"
                            }
                        ]
                    }
                ],
                "code": {
                    "coding": [
                        {
                            "system": "http://loinc.org",
                            "code": "2708-6",
                            "display": "Oxygen saturation in Arterial blood"
                        }
                    ]
                },
                "subject": {
                    "reference": "urn:uuid:patient-aisha-almutairi-03"
                },
                "encounter": {
                    "reference": "urn:uuid:encounter-pediatric-03"
                },
                "effectiveDateTime": "2025-07-23T14:30:00+03:00",
                "valueQuantity": {
                    "value": 94,
                    "unit": "%"
                }
            },
            "request": {
                "method": "POST",
                "url": "Observation"
            }
        },
        {
            "fullUrl": "urn:uuid:obs-general-exam-03",
            "resource": {
                "resourceType": "Observation",
                "status": "final",
                "category": [
                    {
                        "coding": [
                            {
                                "system": "http://terminology.hl7.org/CodeSystem/observation-category",
                                "code": "exam"
                            }
                        ]
                    }
                ],
                "code": {
                    "text": "General Physical Exam"
                },
                "subject": {
                    "reference": "urn:uuid:patient-aisha-almutairi-03"
                },
                "encounter": {
                    "reference": "urn:uuid:encounter-pediatric-03"
                },
                "valueString": "Child appears ill but responsive. Increased work of breathing with mild intercostal retractions."
            },
            "request": {
                "method": "POST",
                "url": "Observation"
            }
        },
        {
            "fullUrl": "urn:uuid:obs-chest-exam-03",
            "resource": {
                "resourceType": "Observation",
                "status": "final",
                "category": [
                    {
                        "coding": [
                            {
                                "system": "http://terminology.hl7.org/CodeSystem/observation-category",
                                "code": "exam"
                            }
                        ]
                    }
                ],
                "code": {
                    "text": "Chest Examination"
                },
                "subject": {
                    "reference": "urn:uuid:patient-aisha-almutairi-03"
                },
                "encounter": {
                    "reference": "urn:uuid:encounter-pediatric-03"
                },
                "valueString": "Decreased breath sounds and crackles in right lower lobe"
            },
            "request": {
                "method": "POST",
                "url": "Observation"
            }
        },
        {
            "fullUrl": "urn:uuid:diag-report-cxr-03",
            "resource": {
                "resourceType": "DiagnosticReport",
                "status": "final",
                "code": {
                    "text": "Chest X-Ray"
                },
                "subject": {
                    "reference": "urn:uuid:patient-aisha-almutairi-03"
                },
                "encounter": {
                    "reference": "urn:uuid:encounter-pediatric-03"
                },
                "effectiveDateTime": "2025-07-23T14:45:00+03:00",
                "conclusion": "Right lower lobe consolidation consistent with pneumonia"
            },
            "request": {
                "method": "POST",
                "url": "DiagnosticReport"
            }
        },
        {
            "fullUrl": "urn:uuid:diag-pneumonia-03",
            "resource": {
                "resourceType": "Condition",
                "clinicalStatus": {
                    "coding": [
                        {
                            "system": "http://terminology.hl7.org/CodeSystem/condition-clinical",
                            "code": "active"
                        }
                    ]
                },
                "category": [
                    {
                        "coding": [
                            {
                                "system": "http://terminology.hl7.org/CodeSystem/condition-category",
                                "code": "encounter-diagnosis"
                            }
                        ]
                    }
                ],
                "code": {
                    "coding": [
                        {
                            "system": "http://hl7.org/fhir/sid/icd-10-cm",
                            "code": "J18.9",
                            "display": "Pneumonia, unspecified organism"
                        }
                    ],
                    "text": "Community-acquired pneumonia, right lower lobe"
                },
                "subject": {
                    "reference": "urn:uuid:patient-aisha-almutairi-03"
                },
                "encounter": {
                    "reference": "urn:uuid:encounter-pediatric-03"
                }
            },
            "request": {
                "method": "POST",
                "url": "Condition"
            }
        },
        {
            "fullUrl": "urn:uuid:composition-pediatric-03",
            "resource": {
                "resourceType": "Composition",
                "status": "final",
                "type": {
                    "coding": [
                        {
                            "system": "http://loinc.org",
                            "code": "11506-3",
                            "display": "Progress note"
                        }
                    ]
                },
                "subject": {
                    "reference": "urn:uuid:patient-aisha-almutairi-03"
                },
                "encounter": {
                    "reference": "urn:uuid:encounter-pediatric-03"
                },
                "date": "2025-07-23T15:00:00+03:00",
                "author": [
                    {
                        "display": "Dr. Fatima Al-Zahra"
                    }
                ],
                "title": "Pediatric Pneumonia Visit",
                "section": [
                    {
                        "title": "Chief Complaint",
                        "code": {
                            "coding": [
                                {
                                    "system": "http://loinc.org",
                                    "code": "10159-8",
                                    "display": "Chief complaint"
                                }
                            ]
                        },
                        "text": {
                            "status": "generated",
                            "div": "<div xmlns=\"http://www.w3.org/1999/xhtml\">High fever, cough, and difficulty breathing for 2 days (reported by mother)</div>"
                        }
                    },
                    {
                        "title": "History of Present Illness",
                        "code": {
                            "coding": [
                                {
                                    "system": "http://loinc.org",
                                    "code": "10164-8",
                                    "display": "History of present illness"
                                }
                            ]
                        },
                        "text": {
                            "status": "generated",
                            "div": "<div xmlns=\"http://www.w3.org/1999/xhtml\">9-year-old Saudi girl brought by mother with 2-day history of high fever (up to 39.5°C), productive cough with yellow sputum, and increased work of breathing. Child appears lethargic and has decreased appetite. No recent travel. Attends local school where several children have been ill with respiratory symptoms. Onset: 2 days ago. Quality: Productive cough, fever, dyspnea. Severity: Moderate to severe. Associated symptoms: Lethargy, decreased appetite.</div>"
                        }
                    },
                    {
                        "title": "Past Medical History",
                        "code": {
                            "coding": [
                                {
                                    "system": "http://loinc.org",
                                    "code": "11329-0",
                                    "display": "History of past illness"
                                }
                            ]
                        },
                        "text": {
                            "status": "generated",
                            "div": "<div xmlns=\"http://www.w3.org/1999/xhtml\"><h3>Medical Conditions:</h3><ul><li>Generally healthy child</li><li>Immunizations up to date</li></ul><h3>Surgical History:</h3><ul><li>None</li></ul><h3>Allergies:</h3><ul><li>No known allergies</li></ul></div>"
                        },
                        "entry": [
                            {
                                "reference": "urn:uuid:pmh-immunizations-03"
                            },
                            {
                                "reference": "urn:uuid:allergy-nkda-03"
                            }
                        ]
                    },
                    {
                        "title": "Review of Systems",
                        "code": {
                            "coding": [
                                {
                                    "system": "http://loinc.org",
                                    "code": "10187-9",
                                    "display": "Review of systems"
                                }
                            ]
                        },
                        "text": {
                            "status": "generated",
                            "div": "<div xmlns=\"http://www.w3.org/1999/xhtml\">Respiratory: Cough (productive), dyspnea, fever. Constitutional: Lethargy, decreased appetite. Gastrointestinal: No nausea or vomiting. Genitourinary: Normal. Neurological: No headache or altered mental status.</div>"
                        }
                    },
                    {
                        "title": "Current Medications",
                        "code": {
                            "coding": [
                                {
                                    "system": "http://loinc.org",
                                    "code": "10160-6",
                                    "display": "Medications"
                                }
                            ]
                        },
                        "text": {
                            "status": "generated",
                            "div": "<div xmlns=\"http://www.w3.org/1999/xhtml\">No current medications prior to this visit.</div>"
                        }
                    },
                    {
                        "title": "Family History",
                        "code": {
                            "coding": [
                                {
                                    "system": "http://loinc.org",
                                    "code": "10157-2",
                                    "display": "Family history"
                                }
                            ]
                        },
                        "text": {
                            "status": "generated",
                            "div": "<div xmlns=\"http://www.w3.org/1999/xhtml\">Family history significant for respiratory conditions. Mother (32 years) has chronic allergic asthma since childhood, well-controlled with inhaled corticosteroids. Father (35 years) healthy with no chronic conditions. Maternal grandmother had chronic bronchitis and was a smoker. Paternal uncle has recurrent pneumonia and bronchiectasis.</div>"
                        },
                        "entry": [
                            {
                                "reference": "urn:uuid:family-history-mother-asthma-03"
                            },
                            {
                                "reference": "urn:uuid:family-history-grandmother-copd-03"
                            },
                            {
                                "reference": "urn:uuid:family-history-uncle-bronchiectasis-03"
                            }
                        ]
                    },
                    {
                        "title": "Objective",
                        "code": {
                            "coding": [
                                {
                                    "system": "http://loinc.org",
                                    "code": "10185-3",
                                    "display": "Physical examination"
                                }
                            ]
                        },
                        "text": {
                            "status": "generated",
                            "div": "<div xmlns=\"http://www.w3.org/1999/xhtml\"><h3>Vital Signs:</h3><ul><li>Temp: 39.2°C</li><li>HR: 110 bpm</li><li>RR: 28 bpm</li><li>O2 sat: 94% on room air</li></ul><h3>Physical Examination:</h3><ul><li>General: Child appears ill but responsive. Increased work of breathing with mild intercostal retractions.</li><li>Chest: Decreased breath sounds and crackles in right lower lobe</li></ul><h3>Radiology:</h3><ul><li>Chest X-ray: Right lower lobe consolidation consistent with pneumonia</li></ul></div>"
                        },
                        "entry": [
                            {
                                "reference": "urn:uuid:obs-temp-03"
                            },
                            {
                                "reference": "urn:uuid:obs-hr-03"
                            },
                            {
                                "reference": "urn:uuid:obs-rr-03"
                            },
                            {
                                "reference": "urn:uuid:obs-o2sat-03"
                            },
                            {
                                "reference": "urn:uuid:obs-general-exam-03"
                            },
                            {
                                "reference": "urn:uuid:obs-chest-exam-03"
                            },
                            {
                                "reference": "urn:uuid:diag-report-cxr-03"
                            }
                        ]
                    },
                    {
                        "title": "Assessment",
                        "code": {
                            "coding": [
                                {
                                    "system": "http://loinc.org",
                                    "code": "51848-0",
                                    "display": "Assessment"
                                }
                            ]
                        },
                        "text": {
                            "status": "generated",
                            "div": "<div xmlns=\"http://www.w3.org/1999/xhtml\">Community-acquired pneumonia, right lower lobe, in a 9-year-old child. Likely bacterial etiology based on clinical presentation and imaging findings. Patient is stable for outpatient management with close follow-up. Family history of respiratory conditions noted but no immediate genetic concerns for current illness.</div>"
                        },
                        "entry": [
                            {
                                "reference": "urn:uuid:diag-pneumonia-03"
                            }
                        ]
                    },
                    {
                        "title": "Plan",
                        "code": {
                            "coding": [
                                {
                                    "system": "http://loinc.org",
                                    "code": "18776-5",
                                    "display": "Plan of care"
                                }
                            ]
                        },
                        "text": {
                            "status": "generated",
                            "div": "<div xmlns=\"http://www.w3.org/1999/xhtml\">1. Oral amoxicillin 45mg/kg/day divided TID for 7 days 2. Supportive care with fluids and rest 3. Paracetamol for fever 4. Return if breathing worsens or fever persists >48 hours 5. Follow-up in 3 days 6. School absence until fever-free for 24 hours</div>"
                        }
                    },
                    {
                        "title": "Planning Orders",
                        "code": {
                            "text": "Treatment Plan Orders"
                        },
                        "entry": [
                            {
                                "reference": "urn:uuid:med-req-amoxicillin-03"
                            },
                            {
                                "reference": "urn:uuid:med-req-paracetamol-03"
                            },
                            {
                                "reference": "urn:uuid:appt-followup-03"
                            }
                        ]
                    },
                    {
                        "title": "Comments",
                        "code": {
                            "text": "Clinical Notes"
                        },
                        "text": {
                            "status": "generated",
                            "div": "<div xmlns=\"http://www.w3.org/1999/xhtml\">Mother educated on signs of respiratory distress requiring immediate medical attention. Discussed importance of medication compliance and completion of antibiotic course. Provided written instructions for home care and fever management. Mother verbalized understanding of treatment plan and when to seek emergency care.</div>"
                        }
                    }
                ]
            },
            "request": {
                "method": "POST",
                "url": "Composition"
            }
        },
        {
            "fullUrl": "urn:uuid:med-req-amoxicillin-03",
            "resource": {
                "resourceType": "MedicationRequest",
                "status": "active",
                "intent": "order",
                "medicationCodeableConcept": {
                    "text": "Amoxicillin"
                },
                "subject": {
                    "reference": "urn:uuid:patient-aisha-almutairi-03"
                },
                "authoredOn": "2025-07-23",
                "dosageInstruction": [
                    {
                        "text": "45mg/kg/day divided three times daily",
                        "timing": {
                            "repeat": {
                                "frequency": 3,
                                "period": 1,
                                "periodUnit": "d"
                            }
                        },
                        "doseAndRate": [
                            {
                                "doseQuantity": {
                                    "value": 250,
                                    "unit": "mg"
                                }
                            }
                        ]
                    }
                ],
                "dispenseRequest": {
                    "quantity": {
                        "value": 7,
                        "unit": "days"
                    }
                }
            },
            "request": {
                "method": "POST",
                "url": "MedicationRequest"
            }
        },
        {
            "fullUrl": "urn:uuid:med-req-paracetamol-03",
            "resource": {
                "resourceType": "MedicationRequest",
                "status": "active",
                "intent": "order",
                "medicationCodeableConcept": {
                    "text": "Paracetamol"
                },
                "subject": {
                    "reference": "urn:uuid:patient-aisha-almutairi-03"
                },
                "authoredOn": "2025-07-23",
                "dosageInstruction": [
                    {
                        "text": "10-15mg/kg every 6 hours as needed for fever",
                        "asNeededBoolean": true
                    }
                ],
                "dispenseRequest": {
                    "quantity": {
                        "value": 5,
                        "unit": "days"
                    }
                }
            },
            "request": {
                "method": "POST",
                "url": "MedicationRequest"
            }
        },
        {
            "fullUrl": "urn:uuid:appt-followup-03",
            "resource": {
                "resourceType": "Appointment",
                "status": "booked",
                "description": "Pneumonia follow-up - assess response to antibiotic therapy, ensure fever resolution",
                "start": "2025-07-26T14:30:00+03:00",
                "participant": [
                    {
                        "actor": {
                            "reference": "urn:uuid:patient-aisha-almutairi-03"
                        },
                        "status": "accepted"
                    }
                ]
            },
            "request": {
                "method": "POST",
                "url": "Appointment"
            }
        }
    ]
}